Folder: etiquetado/doc/files/data_raw_demo (part 2)

File: 20240326_DCP2_JULE_Ni_W_130224_BCV_EIS_i_004_03_PEIS_C01.mpt
EC-Lab ASCII FILE
Nb header lines : 70

Potentio Electrochemical Impedance Spectroscopy

Run on channel : 1 (SN 14323)
User :
Electrode connection : CE to ground
Potential control : Ewe
Ewe ctrl range : min = -10,00 V, max = 10,00 V
Ewe,I filtering : 50 kHz
Safety Limits :
	Do not start on E overload
Channel : Floating
Acquisition started on : 03/26/2024 15:31:47.051
Technique started on : 03/26/2024 15:33:32.671
Loaded Setting File :  C:\Users\Operator\Documents\DCP2_rawdata\CV\2024-03-26\20240326_DCP2_JULE_Ni_W_130224_BCV_EIS_i_000.mps
Saved on :
	File : 20240326_DCP2_JULE_Ni_W_130224_BCV_EIS_i_004_03_PEIS_C01.mpr
	Directory : C:\Users\Operator\Documents\DCP2_rawdata\CV\2024-03-26\
	Host : 134.60.37.140
Device : VSP-300 (SN 0936)
Address : USB
EC-Lab for windows v11.41 (software)
Internet server v11.40 (firmware)
Command interpretor v11.41 (firmware)
Electrode material :
Initial state :
Electrolyte :
Comments :
Cable : standard
Electrode surface area : 0,001 cm²
Characteristic mass : 0,001 g
Equivalent Weight : 0,000 g/eq.
Density : 0,000 g/cm3
Volume (V) : 0,001 cm³
Record Ece
Text export
   Mode : Standard
   Time format : Elapsed
Cycle Definition : Charge/Discharge alternance
Mode                Single sine
E (V)               1,3000
vs.                 Ref
tE (h:m:s)          0:00:0,0000
record              0
dI                  0,000
unit dI             mA
dt (s)              0,000
fi                  100,000
unit fi             kHz
ff                  1,000
unit ff             Hz
Nd                  20
Points              per decade
spacing             Logarithmic
Va (mV)             50,0
pw                  0,10
Na                  2
corr                0
E range min (V)     -10,000
E range max (V)     10,000
I Range             Auto
Bandwidth           8
nc cycles           0
goto Ns'            0
nr cycles           0
inc. cycle          0

freq/Hz	Re(Z)/Ohm	-Im(Z)/Ohm	|Z|/Ohm	Phase(Z)/deg	time/s	<Ewe>/V	<I>/mA	Cs/µF	Cp/µF	cycle number	I Range	|Ewe|/V	|I|/A	Ns	(Q-Qo)/mA.h	<Ece>/V	|Ece|/V	Phase(Zce)/deg	|Zce|/Ohm	Re(Zce)/Ohm	-Im(Zce)/Ohm	Phase(Zwe-ce)/deg	|Zwe-ce|/Ohm	Re(Zwe-ce)/Ohm	-Im(Zwe-ce)/Ohm	Re(Y)/Ohm-1	Im(Y)/Ohm-1	|Y|/Ohm-1	Phase(Y)/deg	dq/mA.h
1,0000371E+005	1,2813235E+002	6,1714854E+000	1,2828090E+002	-2,7575157E+000	1,056203414966294E+002	1,2994691E+000	-2,1373032E-001	2,5787801E-001	5,9685623E-004	1,000000000000000E+000	39	4,9479168E-002	3,8570957E-004	0	-5,568611791630651E-005	1,2732947E+000	5,2799400E-002	-4,6377568E+000	1,3688901E+002	1,3644081E+002	1,1068266E+001	-3,7281578E+000	2,6513428E+002	2,6457318E+002	1,7239752E+001	7,7863666E-003	3,7502975E-004	7,7953930E-003	2,7575157E+000	-5,568611791630651E-005
5,6237012E+004	1,2796921E+002	3,3082983E+000	1,2801196E+002	-1,4808978E+000	1,075053392661212E+002	1,2994655E+000	-9,4197370E-002	8,5544723E-001	5,7134900E-004	1,000000000000000E+000	39	5,0685205E-002	3,9594117E-004	0	-1,235914602399203E-004	1,3485475E+000	5,4258306E-002	-2,5741062E+000	1,3703629E+002	1,3689801E+002	6,1545076E+000	-2,0461133E+000	2,6503619E+002	2,6486722E+002	9,4628057E+000	7,8091607E-003	2,0188476E-004	7,8117698E-003	1,4808978E+000	-9,520550844888925E-006
3,1621143E+004	1,2774937E+002	1,7631804E+000	1,2776154E+002	-7,9073876E-001	1,093903728489822E+002	1,2994578E+000	-6,1010793E-002	2,8546038E+000	5,4367463E-004	1,000000000000000E+000	39	5,0641950E-002	3,9637869E-004	0	-1,619200664958318E-004	0,0000000E+000	5,4329023E-002	-1,4372816E+000	1,3706343E+002	1,3702031E+002	3,4379163E+000	-1,1253651E+000	2,6482077E+002	2,6476968E+002	5,2010965E+000	7,8263367E-003	1,0801809E-004	7,8270817E-003	7,9073876E-001	-6,315094321993666E-006
1,7786891E+004	1,2748969E+002	1,0192155E+000	1,2749377E+002	-4,5804098E-001	1,112753627252241E+002	1,2994722E+000	-4,3971941E-002	8,7791824E+000	5,6105858E-004	1,000000000000000E+000	39	5,0516047E-002	3,9622365E-004	0	-1,912423458881903E-004	0,0000000E+000	5,4264288E-002	-8,3560097E-001	1,3695369E+002	1,3693913E+002	1,9972602E+000	-6,5357405E-001	2,6444604E+002	2,6442883E+002	3,0164757E+000	7,8432700E-003	6,2702973E-005	7,8435205E-003	4,5804098E-001	-5,466250287090808E-006
1,0002226E+004	1,2744637E+002	8,3115393E-001	1,2744907E+002	-3,7365472E-001	1,127943443706899E+002	1,2994524E+000	-3,5577051E-002	1,9144411E+001	8,1420090E-004	1,000000000000000E+000	39	5,3143628E-002	4,1697931E-004	0	-2,085708563218876E-004	0,0000000E+000	5,7087652E-002	-5,1633960E-001	1,3690764E+002	1,3690208E+002	1,2337712E+000	-4,4754979E-001	2,6435651E+002	2,6434845E+002	2,0649252E+000	7,8461049E-003	5,1169140E-005	7,8462716E-003	3,7365472E-001	-2,693026358887440E-006
5,6227744E+003	1,2749912E+002	9,2271292E-001	1,2750246E+002	-4,1464311E-001	1,143133325495000E+002	1,2995437E+000	-2,9097904E-002	3,0676294E+001	1,6065673E-003	1,000000000000000E+000	39	5,4783989E-002	4,2967004E-004	0	-2,219165628309432E-004	0,0000000E+000	5,8866460E-002	-3,9168009E-001	1,3700388E+002	1,3700067E+002	9,3656588E-001	-4,0274918E-001	2,6450632E+002	2,6449979E+002	1,8592788E+000	7,8427801E-003	5,6758312E-005	7,8429859E-003	4,1464311E-001	-2,197118158236375E-006
3,1630769E+003	1,2765075E+002	1,2552912E+000	1,2765692E+002	-5,6341678E-001	1,159594948144149E+002	1,2995170E+000	-2,4400270E-002	4,0083523E+001	3,8758426E-003	1,000000000000000E+000	39	5,4773830E-002	4,2907058E-004	0	-2,351056789498737E-004	0,0000000E+000	5,8833618E-002	-3,8339108E-001	1,3711874E+002	1,3711568E+002	9,1751456E-001	-4,7018731E-001	2,6477533E+002	2,6476642E+002	2,1728058E+000	7,8331167E-003	7,7029268E-005	7,8334957E-003	5,6341678E-001	-2,869570838080515E-006
1,7782897E+003	1,2788450E+002	1,9532542E+000	1,2789941E+002	-8,7504363E-001	1,183499085278891E+002	1,2995417E+000	-1,9431571E-002	4,5820396E+001	1,0686594E-002	1,000000000000000E+000	39	5,2016553E-002	4,0669891E-004	0	-2,498384216640989E-004	0,0000000E+000	5,5818520E-002	-4,2954805E-001	1,3724777E+002	1,3724391E+002	1,0289408E+000	-6,4444232E-001	2,6514520E+002	2,6512842E+002	2,9821949E+000	7,8177322E-003	1,1940476E-004	7,8186439E-003	8,7504363E-001	-2,518465479106667E-006
9,9968164E+002	1,2837965E+002	3,2440045E+000	1,2842064E+002	-1,4474895E+000	1,205777863404073E+002	1,2995262E+000	-1,6080696E-002	4,9076881E+001	3,1316284E-002	1,000000000000000E+000	39	5,2731097E-002	4,1061232E-004	0	-2,613975114209631E-004	0,0000000E+000	5,6290410E-002	-6,2467217E-001	1,3708894E+002	1,3708080E+002	1,4945945E+000	-1,0226490E+000	2,6550275E+002	2,6546045E+002	4,7385988E+000	7,7844257E-003	1,9670336E-004	7,7869105E-003	1,4474895E+000	-2,322093646093019E-006
5,6233929E+002	1,2951044E+002	5,0860438E+000	1,2961026E+002	-2,2489245E+000	1,228028854060976E+002	1,2995353E+000	-1,3795826E-002	5,5646976E+001	8,5688598E-002	1,000000000000000E+000	39	5,2953817E-002	4,0856190E-004	0	-2,704644063068457E-004	0,0000000E+000	5,5954464E-002	-1,0779411E+000	1,3695468E+002	1,3693045E+002	2,5764616E+000	-1,6473006E+000	2,6655106E+002	2,6644089E+002	7,6625051E+000	7,7094957E-003	3,0276197E-004	7,7154385E-003	2,2489245E+000	-2,118762497609061E-006
[...]
3,1629578E+001	1,4701436E+002	2,8335911E+001	1,4972023E+002	-1,0909547E+001	1,339133377204707E+002	1,2995239E+000	-7,7786492E-003	1,7757817E+002	6,3606710E+000	1,000000000000000E+000	39	5,3040110E-002	3,5426146E-004	0	-3,000866985039966E-004	0,0000000E+000	5,5135515E-002	-1,9770639E+001	1,5563509E+002	1,4646106E+002	5,2644463E+001	-1,5426088E+001	3,0444315E+002	2,9347540E+002	8,0980377E+001	6,5584136E-003	1,2640847E-003	6,6791242E-003	1,0909547E+001	-1,560364691661912E-007
1,7775894E+001	1,5599161E+002	4,2615925E+001	1,6170807E+002	-1,5279990E+001	1,363977716518275E+002	1,2995266E+000	-7,0196912E-003	2,1009550E+002	1,4591408E+001	1,000000000000000E+000	40	5,3095851E-002	3,2834386E-004	0	-3,047311081341743E-004	0,0000000E+000	5,7663370E-002	-2,9250805E+001	1,7561885E+002	1,5322554E+002	8,5813255E+001	-2,2554897E+001	3,3482727E+002	3,0921716E+002	1,2842918E+002	5,9653763E-003	1,6297033E-003	6,1839833E-003	1,5279990E+001	-8,538195518810986E-008
9,9968166E+000	1,7043185E+002	6,2832916E+001	1,8164523E+002	-2,0237360E+001	1,386637311461091E+002	1,2995316E+000	-6,6561098E-003	2,5337933E+002	3,0317795E+001	1,000000000000000E+000	40	5,3069059E-002	2,9215773E-004	0	-3,085070135932199E-004	0,0000000E+000	6,3129880E-002	-4,0608727E+001	2,1608150E+002	1,6404306E+002	1,4064525E+002	-3,1314283E+001	3,9150586E+002	3,3447491E+002	2,0347816E+002	5,1653855E-003	1,9043168E-003	5,5052368E-003	2,0237360E+001	9,985058478358339E-008
5,6245475E+000	1,9251530E+002	9,0598068E+001	2,1276784E+002	-2,5201763E+001	1,407974878341556E+002	1,2995430E+000	-6,2431903E-003	3,1232993E+002	5,6629086E+001	1,000000000000000E+000	40	5,3049341E-002	2,4932969E-004	0	-3,119320769002742E-004	0,0000000E+000	7,2951272E-002	-5,1011143E+001	2,9258960E+002	1,8408838E+002	2,2742062E+002	-4,0179035E+001	4,9291605E+002	3,7660370E+002	3,1801868E+002	4,2525879E-003	2,0012758E-003	4,6999585E-003	2,5201763E+001	1,756037825640137E-006
3,1629577E+000	2,2752646E+002	1,2995503E+002	2,6202405E+002	-2,9733473E+001	1,435959339136898E+002	1,2995416E+000	-6,5079457E-003	3,8719849E+002	9,5243980E+001	1,000000000000000E+000	40	5,3031996E-002	2,0239361E-004	0	-3,159311553839636E-004	0,0000000E+000	8,5861191E-002	-5,8363987E+001	4,2422876E+002	2,2251695E+002	3,6118726E+002	-4,7500355E+001	6,6615295E+002	4,5004340E+002	4,9114227E+002	3,3139777E-003	1,8928264E-003	3,8164435E-003	2,9733473E+001	1,519284396615046E-006
1,7775893E+000	2,8686801E+002	1,9580902E+002	3,4732468E+002	-3,4316479E+001	1,484718002519803E+002	1,2995392E+000	-5,8379374E-003	4,5725241E+002	1,4532828E+002	1,000000000000000E+000	40	5,3031005E-002	1,5268424E-004	0	-3,277498359700468E-004	0,0000000E+000	9,9979371E-002	-6,4800606E+001	6,5481134E+002	2,7879883E+002	5,9249396E+002	-5,4337708E+001	9,7025800E+002	5,6566687E+002	7,8830298E+002	2,3779946E-003	1,6231603E-003	2,8791504E-003	3,4316479E+001	-4,958286244435709E-008
1,0000616E+000	3,9807062E+002	3,1356299E+002	5,0673657E+002	-3,8227749E+001	1,570466825259209E+002	1,2995533E+000	-4,4986154E-003	5,0753799E+002	1,9433618E+002	1,000000000000000E+000	40	5,3030074E-002	1,0465018E-004	0	-3,420139292621898E-004	0,0000000E+000	1,1093844E-001	-6,9397316E+001	1,0600885E+003	3,7302975E+002	9,9228851E+002	-5,9438313E+001	1,5165237E+003	7,7110034E+002	1,3058516E+003	1,5502282E-003	1,2211255E-003	1,9734120E-003	3,8227749E+001	-5,912974998079242E-006