Folder: etiquetado/doc/files/data_raw_demo

Note: README.md
# Welcome to etiquetado

`etiquetado` provides an API and APPs to annotate research data automatically with metadata and notes, as well as a means to export such data as frictionless based [unitpackages](https://echemdb.github.io/unitpackage/).

The repository is currently under construction, containing several non-organized Python scripts and Jupyter notebooks.

File: 20240326_DCP2_JULE_Ni_W_130224_BCV_EIS_i_004_01_PEIS_C01.mpt
EC-Lab ASCII FILE
Nb header lines : 70

Potentio Electrochemical Impedance Spectroscopy

Run on channel : 1 (SN 14323)
User :
Electrode connection : CE to ground
Potential control : Ewe
Ewe ctrl range : min = -10,00 V, max = 10,00 V
Ewe,I filtering : 50 kHz
Safety Limits :
	Do not start on E overload
Channel : Floating
Acquisition started on : 03/26/2024 15:31:47.051
Technique started on : 03/26/2024 15:31:48.344
Loaded Setting File :  C:\Users\Operator\Documents\DCP2_rawdata\CV\2024-03-26\20240326_DCP2_JULE_Ni_W_130224_BCV_EIS_i_000.mps
Saved on :
	File : 20240326_DCP2_JULE_Ni_W_130224_BCV_EIS_i_004_01_PEIS_C01.mpr
	Directory : C:\Users\Operator\Documents\DCP2_rawdata\CV\2024-03-26\
	Host : 134.60.37.140
Device : VSP-300 (SN 0936)
Address : USB
EC-Lab for windows v11.41 (software)
Internet server v11.40 (firmware)
Command interpretor v11.41 (firmware)
Electrode material :
Initial state :
Electrolyte :
Comments :
Cable : standard
Electrode surface area : 0,001 cm²
Characteristic mass : 0,001 g
Equivalent Weight : 0,000 g/eq.
Density : 0,000 g/cm3
Volume (V) : 0,001 cm³
Record Ece
Text export
   Mode : Standard
   Time format : Elapsed
Cycle Definition : Charge/Discharge alternance
Mode                Single sine
E (V)               1,5000
vs.                 Ref
tE (h:m:s)          0:00:0,0000
record              0
dI                  0,000
unit dI             mA
dt (s)              0,000
fi                  100,000
unit fi             kHz
ff                  1,000
unit ff             Hz
Nd                  20
Points              per decade
spacing             Logarithmic
Va (mV)             50,0
pw                  0,10
Na                  2
corr                0
E range min (V)     -10,000
E range max (V)     10,000
I Range             Auto
Bandwidth           8
nc cycles           0
goto Ns'            0
nr cycles           0
inc. cycle          0

freq/Hz	Re(Z)/Ohm	-Im(Z)/Ohm	|Z|/Ohm	Phase(Z)/deg	time/s	<Ewe>/V	<I>/mA	Cs/µF	Cp/µF	cycle number	I Range	|Ewe|/V	|I|/A	Ns	(Q-Qo)/mA.h	<Ece>/V	|Ece|/V	Phase(Zce)/deg	|Zce|/Ohm	Re(Zce)/Ohm	-Im(Zce)/Ohm	Phase(Zwe-ce)/deg	|Zwe-ce|/Ohm	Re(Zwe-ce)/Ohm	-Im(Zwe-ce)/Ohm	Re(Y)/Ohm-1	Im(Y)/Ohm-1	|Y|/Ohm-1	Phase(Y)/deg	dq/mA.h
1,0000371E+005	1,2771152E+002	6,1239581E+000	1,2785827E+002	-2,7453151E+000	1,292525661381660E+000	1,4994906E+000	3,7831161E-002	2,5987935E-001	5,9618161E-004	1,000000000000000E+000	39	4,9533181E-002	3,8740694E-004	0	1,568984265144293E-005	9,4632798E-001	5,2926905E-002	-4,6956530E+000	1,3661838E+002	1,3615984E+002	1,1183976E+001	-3,7527871E+000	2,6443839E+002	2,6387137E+002	1,7307934E+001	7,8121843E-003	3,7460585E-004	7,8211604E-003	2,7453151E+000	1,568984265144293E-005
5,6237012E+004	1,2786796E+002	3,3213859E+000	1,2791109E+002	-1,4879303E+000	3,177533537585987E+000	1,4994891E+000	3,3209592E-002	8,5207641E-001	5,7451433E-004	1,000000000000000E+000	39	5,0693903E-002	3,9632141E-004	0	3,370161686057772E-005	0,0000000E+000	5,4186113E-002	-2,6133406E+000	1,3672266E+002	1,3658046E+002	6,2339492E+000	-2,0693724E+000	2,6462100E+002	2,6444843E+002	9,5553350E+000	7,8152949E-003	2,0300323E-004	7,8179305E-003	1,4879303E+000	2,684031084238899E-006
3,1621143E+004	1,2777127E+002	1,6945534E+000	1,2778251E+002	-7,5983483E-001	5,062520800420316E+000	1,4994668E+000	3,2506384E-002	2,9702110E+000	5,2234204E-004	1,000000000000000E+000	39	5,0655387E-002	3,9641879E-004	0	5,062352471087554E-005	0,0000000E+000	5,4213986E-002	-1,4315734E+000	1,3675937E+002	1,3671669E+002	3,4166689E+000	-1,1071014E+000	2,6453735E+002	2,6448798E+002	5,1112223E+000	7,8251092E-003	1,0377970E-004	7,8257974E-003	7,5983483E-001	3,512496967442631E-006
1,7786891E+004	1,2757942E+002	9,1043055E-001	1,2758267E+002	-4,0886644E-001	6,947549903270556E+000	1,4994966E+000	3,2243516E-002	9,8281841E+000	5,0047634E-004	1,000000000000000E+000	39	5,0520275E-002	3,9598069E-004	0	6,851754633730161E-005	0,0000000E+000	5,4075055E-002	-7,8627443E-001	1,3655983E+002	1,3654697E+002	1,8739624E+000	-6,0398370E-001	2,6414108E+002	2,6412640E+002	2,7843928E+000	7,8378553E-003	5,5932396E-005	7,8380546E-003	4,0886644E-001	4,316731338893678E-006
1,0002226E+004	1,2756107E+002	7,0711756E-001	1,2756303E+002	-3,1760815E-001	8,466523175447946E+000	1,4994773E+000	3,2309141E-002	2,2502558E+001	6,9145742E-004	1,000000000000000E+000	39	5,3134143E-002	4,1653245E-004	0	8,040349800024554E-005	0,0000000E+000	5,6928087E-002	-4,7355944E-001	1,3667143E+002	1,3666676E+002	1,1295999E+000	-3,9827168E-001	2,6423422E+002	2,6422784E+002	1,8367175E+000	7,8391414E-003	4,3455217E-005	7,8392616E-003	3,1760815E-001	1,939543422716368E-006
5,6227744E+003	1,2763499E+002	6,9872946E-001	1,2763690E+002	-3,1365889E-001	9,985569300915813E+000	1,4995311E+000	3,2191318E-002	4,0509830E+001	1,2140205E-003	1,000000000000000E+000	39	5,4753762E-002	4,2898065E-004	0	9,439008575073523E-005	0,0000000E+000	5,8656540E-002	-2,9327676E-001	1,3673470E+002	1,3673291E+002	6,9989336E-001	-3,0311713E-001	2,6437158E+002	2,6436789E+002	1,3986228E+000	7,8346077E-003	4,2890053E-005	7,8347251E-003	3,1365889E-001	2,553683388929946E-006
3,1630769E+003	1,2766562E+002	8,9463484E-001	1,2766875E+002	-4,0150169E-001	1,163167268583493E+001	1,4995540E+000	3,2069396E-002	5,6242493E+001	2,7617663E-003	1,000000000000000E+000	39	5,4737661E-002	4,2874750E-004	0	1,089869021757303E-004	0,0000000E+000	5,8592159E-002	-1,4451879E-001	1,3665889E+002	1,3665846E+002	3,4469828E-001	-2,6864004E-001	2,6432700E+002	2,6432410E+002	1,2393332E+000	7,8325784E-003	5,4887896E-005	7,8327702E-003	4,0150169E-001	3,613073469977180E-006
1,7782897E+003	1,2792648E+002	1,2636547E+000	1,2793272E+002	-5,6594795E-001	1,402208042601706E+001	1,4995530E+000	3,1888936E-002	7,0825432E+001	6,9100750E-003	1,000000000000000E+000	39	5,2025374E-002	4,0666197E-004	0	1,309877449171949E-004	0,0000000E+000	5,5594314E-002	-2,2825416E-002	1,3670891E+002	1,3670889E+002	5,4461911E-002	-2,8538096E-001	2,6463867E+002	2,6463538E+002	1,3181167E+000	7,8162272E-003	7,7208504E-005	7,8166081E-003	5,6594795E-001	3,866547112315948E-006
9,9968164E+002	1,2826462E+002	2,0005808E+000	1,2828021E+002	-8,9358658E-001	1,625098762521520E+001	1,4995418E+000	3,1813614E-002	7,9579704E+001	1,9355088E-002	1,000000000000000E+000	39	5,2722335E-002	4,1099353E-004	0	1,513728819647036E-004	0,0000000E+000	5,6129135E-002	8,3950989E-002	1,3656940E+002	1,3656924E+002	-2,0010430E-001	-3,8952011E-001	2,6484000E+002	2,6483386E+002	1,8004766E+000	7,7944864E-003	1,2157288E-004	7,7954344E-003	8,9358658E-001	4,300867244109720E-006
5,6233929E+002	1,2908327E+002	3,0864902E+000	1,2912016E+002	-1,3697295E+000	1,847505733085563E+001	1,4995394E+000	3,1636134E-002	9,1697357E+001	5,2396040E-002	1,000000000000000E+000	39	5,2947100E-002	4,1006066E-004	0	1,705215601407164E-004	0,0000000E+000	5,5786166E-002	1,6235091E-001	1,3604369E+002	1,3604314E+002	-3,8548714E-001	-5,8368659E-001	2,6514017E+002	2,6512640E+002	2,7010031E+000	7,7425111E-003	1,8512997E-004	7,7447239E-003	1,3697295E+000	3,905737080954469E-006
[...]
3,1629578E+001	1,3621129E+002	8,3621883E+000	1,3646773E+002	-3,5130534E+000	2,958657484527794E+001	1,4995334E+000	3,1312868E-002	6,0173712E+002	2,2593670E+000	1,000000000000000E+000	39	5,3019509E-002	3,8851314E-004	0	2,672671896556001E-004	0,0000000E+000	5,4082230E-002	-7,7262578E+000	1,3920309E+002	1,3793936E+002	1,8714510E+001	-5,6405687E+000	2,7548453E+002	2,7415063E+002	2,7076698E+001	7,3139700E-003	4,4901413E-004	7,3277396E-003	3,5130534E+000	4,340848948281061E-006
1,7775894E+001	1,3752315E+002	1,2896151E+001	1,3812650E+002	-5,3572106E+000	3,184993879278773E+001	1,4995607E+000	3,1624574E-002	6,9427026E+002	6,0519423E+000	1,000000000000000E+000	39	5,3024046E-002	3,8388034E-004	0	2,880208744533576E-004	0,0000000E+000	5,5831455E-002	-1,1495362E+001	1,4543973E+002	1,4252232E+002	2,8984482E+001	-8,5055141E+000	2,8315976E+002	2,8004547E+002	4,1880630E+001	7,2081173E-003	6,7593687E-004	7,2397408E-003	5,3572106E+000	5,417860745733660E-006
9,9968166E+000	1,3970621E+002	2,0579021E+001	1,4121375E+002	-8,3795309E+000	3,437192323259660E+001	1,4995528E+000	3,2193579E-002	7,7363068E+002	1,6429684E+001	1,000000000000000E+000	40	5,3049501E-002	3,7566811E-004	0	3,080932486130219E-004	0,0000000E+000	5,8425590E-002	-1,6390032E+001	1,5552449E+002	1,4920445E+002	4,3885052E+001	-1,2578257E+001	2,9601517E+002	2,8891064E+002	6,4464073E+001	7,0058652E-003	1,0319789E-003	7,0814635E-003	8,3795309E+000	4,054702217710059E-006
5,6245475E+000	1,4336177E+002	3,3161556E+001	1,4714716E+002	-1,3024237E+001	3,650564256061625E+001	1,4995390E+000	3,3100341E-002	8,5329193E+002	4,3337486E+001	1,000000000000000E+000	40	5,3046077E-002	3,6049681E-004	0	3,253361560562593E-004	0,0000000E+000	6,2015928E-002	-2,2645182E+001	1,7202907E+002	1,5876682E+002	6,6235184E+001	-1,8210596E+001	3,1805881E+002	3,0212860E+002	9,9396744E+001	6,6210921E-003	1,5315498E-003	6,7959181E-003	1,3024237E+001	-3,529568945426741E-008
3,1629577E+000	1,5086397E+002	5,2993179E+001	1,5990063E+002	-1,9354572E+001	3,930422312018345E+001	1,4995512E+000	3,6252879E-002	9,4952582E+002	1,0429089E+002	1,000000000000000E+000	40	5,3041499E-002	3,3171536E-004	0	3,504422608992350E-004	0,0000000E+000	6,6619799E-002	-2,9449686E+001	2,0083423E+002	1,7488399E+002	9,8741966E+001	-2,4976355E+001	3,5935397E+002	3,2574796E+002	1,5173514E+002	5,9004501E-003	2,0726195E-003	6,2538837E-003	1,9354572E+001	3,183679683764539E-006
1,7775893E+000	1,6510683E+002	8,3415924E+001	1,8498238E+002	-2,6803999E+001	4,417979193844076E+001	1,4995558E+000	4,1503292E-002	1,0733459E+003	2,1826140E+002	1,000000000000000E+000	40	5,3038575E-002	2,8672232E-004	0	4,070839482309287E-004	0,0000000E+000	7,0965618E-002	-3,5612827E+001	2,4750642E+002	2,0121539E+002	1,4412424E+002	-3,1846384E+001	4,3123831E+002	3,6632220E+002	2,2754016E+002	4,8250780E-003	2,4377450E-003	5,4059206E-003	2,6803999E+001	8,255517601138201E-006
1,0000616E+000	1,9508549E+002	1,2518606E+002	2,3179710E+002	-3,2688225E+001	5,275385642566835E+001	1,4995563E+000	4,7732502E-002	1,2712688E+003	3,7079453E+002	1,000000000000000E+000	40	5,3036671E-002	2,2880644E-004	0	5,255817193079678E-004	0,0000000E+000	7,1860529E-002	-3,8432274E+001	3,1406689E+002	2,4602223E+002	1,9522058E+002	-3,5993465E+001	5,4519397E+002	4,4110773E+002	3,2040665E+002	3,6308554E-003	2,3299141E-003	4,3141176E-003	3,2688225E+001	3,339784684370606E-005

File: 20240326_DCP2_JULE_Ni_W_130224_BCV_EIS_i_004_02_PEIS_C01.mpt
EC-Lab ASCII FILE
Nb header lines : 70

Potentio Electrochemical Impedance Spectroscopy

Run on channel : 1 (SN 14323)
User :
Electrode connection : CE to ground
Potential control : Ewe
Ewe ctrl range : min = -10,00 V, max = 10,00 V
Ewe,I filtering : 50 kHz
Safety Limits :
	Do not start on E overload
Channel : Floating
Acquisition started on : 03/26/2024 15:31:47.051
Technique started on : 03/26/2024 15:32:40.508
Loaded Setting File :  C:\Users\Operator\Documents\DCP2_rawdata\CV\2024-03-26\20240326_DCP2_JULE_Ni_W_130224_BCV_EIS_i_000.mps
Saved on :
	File : 20240326_DCP2_JULE_Ni_W_130224_BCV_EIS_i_004_02_PEIS_C01.mpr
	Directory : C:\Users\Operator\Documents\DCP2_rawdata\CV\2024-03-26\
	Host : 134.60.37.140
Device : VSP-300 (SN 0936)
Address : USB
EC-Lab for windows v11.41 (software)
Internet server v11.40 (firmware)
Command interpretor v11.41 (firmware)
Electrode material :
Initial state :
Electrolyte :
Comments :
Cable : standard
Electrode surface area : 0,001 cm²
Characteristic mass : 0,001 g
Equivalent Weight : 0,000 g/eq.
Density : 0,000 g/cm3
Volume (V) : 0,001 cm³
Record Ece
Text export
   Mode : Standard
   Time format : Elapsed
Cycle Definition : Charge/Discharge alternance
Mode                Single sine
E (V)               1,4000
vs.                 Ref
tE (h:m:s)          0:00:0,0000
record              0
dI                  0,000
unit dI             mA
dt (s)              0,000
fi                  100,000
unit fi             kHz
ff                  1,000
unit ff             Hz
Nd                  20
Points              per decade
spacing             Logarithmic
Va (mV)             50,0
pw                  0,10
Na                  2
corr                0
E range min (V)     -10,000
E range max (V)     10,000
I Range             Auto
Bandwidth           8
nc cycles           0
goto Ns'            0
nr cycles           0
inc. cycle          0

freq/Hz	Re(Z)/Ohm	-Im(Z)/Ohm	|Z|/Ohm	Phase(Z)/deg	time/s	<Ewe>/V	<I>/mA	Cs/µF	Cp/µF	cycle number	I Range	|Ewe|/V	|I|/A	Ns	(Q-Qo)/mA.h	<Ece>/V	|Ece|/V	Phase(Zce)/deg	|Zce|/Ohm	Re(Zce)/Ohm	-Im(Zce)/Ohm	Phase(Zwe-ce)/deg	|Zwe-ce|/Ohm	Re(Zwe-ce)/Ohm	-Im(Zwe-ce)/Ohm	Re(Y)/Ohm-1	Im(Y)/Ohm-1	|Y|/Ohm-1	Phase(Y)/deg	dq/mA.h
1,0000371E+005	1,2854245E+002	6,1945400E+000	1,2869162E+002	-2,7589848E+000	5,345694333902793E+001	1,3994939E+000	-1,0659600E-001	2,5691822E-001	5,9526798E-004	1,000000000000000E+000	39	4,9480472E-002	3,8448867E-004	0	-4,379762967023999E-005	1,0438001E+000	5,2511718E-002	-4,6901984E+000	1,3657547E+002	1,3611813E+002	1,1167504E+001	-3,7532926E+000	2,6522946E+002	2,6466058E+002	1,7362045E+001	7,7615064E-003	3,7403184E-004	7,7705137E-003	2,7589848E+000	-4,379762967023999E-005
5,6237012E+004	1,2852382E+002	3,3431523E+000	1,2856729E+002	-1,4900377E+000	5,534196724189678E+001	1,3994846E+000	-1,8391671E-002	8,4652883E-001	5,7239138E-004	1,000000000000000E+000	39	5,0681014E-002	3,9419835E-004	0	-6,444231364960757E-005	1,0317553E+000	5,3915195E-002	-2,6145649E+000	1,3677174E+002	1,3662936E+002	6,2391071E+000	-2,0696871E+000	2,6532629E+002	2,6515320E+002	9,5822592E+000	7,7753980E-003	2,0225310E-004	7,7780280E-003	1,4900377E+000	-1,506190819701358E-006
3,1621143E+004	1,2842268E+002	1,7063267E+000	1,2843402E+002	-7,6123285E-001	5,722696511808317E+001	1,3995051E+000	-7,5899819E-003	2,9497173E+000	5,2064849E-004	1,000000000000000E+000	39	5,0631586E-002	3,9422253E-004	0	-6,898058046674124E-005	1,0357550E+000	5,3894650E-002	-1,4289515E+000	1,3671124E+002	1,3666873E+002	3,4092126E+000	-1,1055146E+000	2,6514078E+002	2,6509143E+002	5,1155396E+000	7,7854116E-003	1,0344322E-004	7,7860989E-003	7,6123285E-001	3,053547938664642E-008
1,7786891E+004	1,2821219E+002	9,7985274E-001	1,2821593E+002	-4,3787050E-001	5,911194096761756E+001	1,3994631E+000	-4,1723689E-003	9,1318607E+000	5,3333119E-004	1,000000000000000E+000	39	5,0529048E-002	3,9409337E-004	0	-6,975604518672077E-005	0,0000000E+000	5,3842541E-002	-7,7435464E-001	1,3662383E+002	1,3661134E+002	1,8464199E+000	-6,1145377E-001	2,6483862E+002	2,6482355E+002	2,8262727E+000	7,7991155E-003	5,9604201E-005	7,7993432E-003	4,3787050E-001	6,833239497467682E-008
1,0002226E+004	1,2810748E+002	6,8015337E-001	1,2810928E+002	-3,0419418E-001	6,063096306641819E+001	1,3994935E+000	-3,0120341E-003	2,3394653E+001	6,5943069E-004	1,000000000000000E+000	39	5,3061131E-002	4,1418648E-004	0	-7,054288448331256E-005	0,0000000E+000	5,6595854E-002	-4,6394259E-001	1,3664342E+002	1,3663893E+002	1,1064341E+000	-3,8664311E-001	2,6475244E+002	2,6474640E+002	1,7865875E+000	7,8057256E-003	4,1442469E-005	7,8058355E-003	3,0419418E-001	-4,970569222253481E-007
5,6227744E+003	1,2817278E+002	7,4544448E-001	1,2817494E+002	-3,3322477E-001	6,214993687189417E+001	1,3995351E+000	-2,2435749E-003	3,7971188E+001	1,2843356E-003	1,000000000000000E+000	39	5,4763481E-002	4,2725573E-004	0	-7,186031266030235E-005	0,0000000E+000	5,8363371E-002	-2,7179277E-001	1,3660056E+002	1,3659901E+002	6,4798671E-001	-3,0153131E-001	2,6477545E+002	2,6477179E+002	1,3934312E+000	7,8017050E-003	4,5374207E-005	7,8018368E-003	3,3322477E-001	-1,977950168980021E-008
3,1630769E+003	1,2827202E+002	8,8434577E-001	1,2827507E+002	-3,9500800E-001	6,379603807014792E+001	1,3995472E+000	-1,7275398E-003	5,6896854E+001	2,7042569E-003	1,000000000000000E+000	39	5,4705568E-002	4,2647077E-004	0	-7,299367775537798E-005	0,0000000E+000	5,8313053E-002	-1,5497538E-001	1,3673399E+002	1,3673349E+002	3,6984184E-001	-2,7116087E-001	2,6500845E+002	2,6500549E+002	1,2541876E+000	7,7955616E-003	5,3744934E-005	7,7957469E-003	3,9500800E-001	-9,901050215880810E-008
1,7782897E+003	1,2841806E+002	1,2332150E+000	1,2842398E+002	-5,5020171E-001	6,618651599698933E+001	1,3995534E+000	-1,2144879E-003	7,2573631E+001	6,6921269E-003	1,000000000000000E+000	39	5,1983327E-002	4,0477898E-004	0	-7,399856350398881E-005	0,0000000E+000	5,5333167E-002	-5,0673302E-002	1,3669971E+002	1,3669965E+002	1,2089939E-001	-2,9264122E-001	2,6512115E+002	2,6511771E+002	1,3541144E+000	7,7863485E-003	7,4773292E-005	7,7867075E-003	5,5020171E-001	-4,732577605316490E-007
9,9968164E+002	1,2877684E+002	2,0610204E+000	1,2879333E+002	-9,1691703E-001	6,841531156952260E+001	1,3995574E+000	-9,8555302E-004	7,7246025E+001	1,9781258E-002	1,000000000000000E+000	39	5,2693985E-002	4,0913597E-004	0	-7,461281560740867E-005	0,0000000E+000	5,5891033E-002	2,5721803E-002	1,3660748E+002	1,3660747E+002	-6,1327219E-002	-4,3172038E-001	2,6539185E+002	2,6538431E+002	1,9996932E+000	7,7633830E-003	1,2424974E-004	7,7643772E-003	9,1691703E-001	1,138234770446005E-007
5,6233929E+002	1,2961571E+002	3,1038013E+000	1,2965286E+002	-1,3717530E+000	7,063942796850461E+001	1,3995575E+000	-8,1515638E-004	9,1185928E+001	5,2257832E-002	1,000000000000000E+000	39	5,2910250E-002	4,0809164E-004	0	-7,482620108978072E-005	0,0000000E+000	5,5537160E-002	7,2320685E-002	1,3608992E+002	1,3608981E+002	-1,7177729E-001	-6,3222545E-001	2,6572168E+002	2,6570551E+002	2,9320240E+000	7,7106929E-003	1,8464166E-004	7,7129034E-003	1,3717530E+000	2,730312183557565E-007
[...]
3,1629578E+001	1,3653909E+002	7,8044567E+000	1,3676196E+002	-3,2714176E+000	8,175096164288698E+001	1,3995590E+000	-2,6407465E-004	6,4473914E+002	2,0996106E+000	1,000000000000000E+000	39	5,2981690E-002	3,8740077E-004	0	-7,863529449683361E-005	0,0000000E+000	5,4532021E-002	-9,0811901E+000	1,4076384E+002	1,3899947E+002	2,2217304E+001	-6,2182269E+000	2,7716928E+002	2,7553857E+002	3,0021761E+001	7,3000593E-003	4,1726508E-004	7,3119747E-003	3,2714176E+000	-6,726092202281620E-007
1,7775894E+001	1,3763248E+002	1,1932504E+001	1,3814877E+002	-4,9550571E+000	8,401435415045125E+001	1,3995473E+000	6,7209592E-005	7,5033826E+002	5,5979133E+000	1,000000000000000E+000	39	5,2984074E-002	3,8352911E-004	0	-7,763548409510340E-005	0,0000000E+000	5,6670383E-002	-1,3569319E+001	1,4776031E+002	1,4363585E+002	3,4667763E+001	-9,4072561E+000	2,8510251E+002	2,8126831E+002	4,6600266E+001	7,2115208E-003	6,2522665E-004	7,2385729E-003	4,9550571E+000	-3,382174897981124E-007
9,9968166E+000	1,3936247E+002	1,8930496E+001	1,4064232E+002	-7,7355070E+000	8,653633317688946E+001	1,3995569E+000	-6,8459143E-005	8,4100085E+002	1,5236610E+001	1,000000000000000E+000	40	5,3002208E-002	3,7685820E-004	0	-7,822857300910659E-005	0,0000000E+000	6,0131993E-002	-1,9771318E+001	1,5956133E+002	1,5015523E+002	5,3974312E+001	-1,4134059E+001	2,9855588E+002	2,8951770E+002	7,2904808E+001	7,0455321E-003	9,5703971E-004	7,1102353E-003	7,7355070E+000	-2,964310506239909E-006
5,6245475E+000	1,4229176E+002	2,9964430E+001	1,4541257E+002	-1,1891846E+001	8,866806535817159E+001	1,3995535E+000	-1,7922636E-004	9,4433606E+002	4,0099106E+001	1,000000000000000E+000	40	5,3005707E-002	3,6451942E-004	0	-7,477717403763059E-005	0,0000000E+000	6,5484166E-002	-2,7609512E+001	1,7964520E+002	1,5918840E+002	8,3255341E+001	-2,0583485E+001	3,2203882E+002	3,0148016E+002	1,1321977E+002	6,7293928E-003	1,4171053E-003	6,8769846E-003	1,1891846E+001	1,118668799468035E-006
3,1629577E+000	1,4674680E+002	4,7196972E+001	1,5414986E+002	-1,7828922E+001	9,146662599773845E+001	1,3995628E+000	-6,7312474E-004	1,0661360E+003	9,9943520E+001	1,000000000000000E+000	40	5,2985445E-002	3,4372686E-004	0	-7,484524683884067E-005	0,0000000E+000	7,4134894E-002	-3,6984810E+001	2,1567966E+002	1,7228384E+002	1,2975359E+002	-2,9014971E+001	3,6481784E+002	3,1903064E+002	1,7695056E+002	6,1756461E-003	1,9862223E-003	6,4871940E-003	1,7828922E+001	-1,100922837388578E-006
1,7775893E+000	1,5365807E+002	7,2253822E+001	1,6979816E+002	-2,5184071E+001	9,634230921597919E+001	1,3995434E+000	-8,9457317E-004	1,2391614E+003	2,2437970E+002	1,000000000000000E+000	40	5,3002398E-002	3,1214944E-004	0	-7,242758647370890E-005	0,0000000E+000	8,6241744E-002	-4,5524994E+001	2,7628351E+002	1,9356369E+002	1,9714380E+002	-3,7806679E+001	4,3947470E+002	3,4722174E+002	2,6939761E+002	5,3295358E-003	2,5060796E-003	5,8893454E-003	2,5184071E+001	4,623943355131708E-006
1,0000616E+000	1,6426878E+002	1,1185204E+002	1,9873376E+002	-3,4251289E+001	1,049173380766006E+002	1,3995422E+000	-9,2147128E-004	1,4228184E+003	4,5070660E+002	1,000000000000000E+000	40	5,2996811E-002	2,6667240E-004	0	-8,934339905414284E-005	0,0000000E+000	1,0160697E-001	-5,2922478E+001	3,8101791E+002	2,2971381E+002	3,0398392E+002	-4,6545780E+001	5,7283667E+002	3,9398260E+002	4,1583594E+002	4,1592182E-003	2,8320479E-003	5,0318576E-003	3,4251289E+001	2,654484566990502E-006